Folder: ML4HEOs/data

Note: README.md
# ML4HEOs
Machine Learning methods for high entropy oxides

File: Phases_XRD_data.csv
Fm-3m,,,Ia-3,,,P63m,
10,365,,10,526,,10,573
10.135,374,,10.135,549,,10.135,565
10.27,384,,10.27,512,,10.27,584
10.405,401,,10.405,520,,10.405,569
10.54,377,,10.54,539,,10.54,558
10.675,365,,10.675,535,,10.675,556
10.81,406,,10.81,513,,10.81,539
10.945,366,,10.945,530,,10.945,551
11.08,384,,11.08,524,,11.08,521
11.215,439,,11.215,558,,11.215,576
11.35,395,,11.35,519,,11.35,552
11.485,386,,11.485,562,,11.485,593
11.62,410,,11.62,497,,11.62,595
11.755,401,,11.755,553,,11.755,597
11.89,383,,11.89,536,,11.89,603
12.025,360,,12.025,588,,12.025,657
12.16,413,,12.16,521,,12.16,850
12.295,396,,12.295,554,,12.295,1153
12.43,390,,12.43,555,,12.43,1441
12.565,370,,12.565,535,,12.565,1228
12.7,366,,12.7,550,,12.7,917
12.835,396,,12.835,537,,12.835,697
12.97,416,,12.97,535,,12.97,641
13.105,385,,13.105,513,,13.105,603
13.24,376,,13.24,556,,13.24,586
13.375,393,,13.375,552,,13.375,570
13.51,394,,13.51,559,,13.51,569
13.645,393,,13.645,563,,13.645,611
13.78,408,,13.78,586,,13.78,553
13.915,418,,13.915,562,,13.915,602
14.05,397,,14.05,551,,14.05,567
14.185,388,,14.185,574,,14.185,612
14.32,406,,14.32,553,,14.32,530
14.455,392,,14.455,568,,14.455,590
14.59,389,,14.59,543,,14.59,533
14.725,366,,14.725,543,,14.725,561
14.86,390,,14.86,538,,14.86,553
14.995,396,,14.995,526,,14.995,546
15.13,407,,15.13,566,,15.13,549
15.265,365,,15.265,528,,15.265,540
15.4,378,,15.4,541,,15.4,566
15.535,383,,15.535,592,,15.535,533
15.67,345,,15.67,594,,15.67,555
15.805,356,,15.805,587,,15.805,520
15.94,377,,15.94,674,,15.94,488
16.075,347,,16.075,799,,16.075,543
16.21,319,,16.21,849,,16.21,519
16.345,350,,16.345,799,,16.345,525
16.48,352,,16.48,630,,16.48,512
16.615,340,,16.615,538,,16.615,477
16.75,357,,16.75,506,,16.75,508
16.885,345,,16.885,517,,16.885,525
17.02,352,,17.02,489,,17.02,559
17.155,334,,17.155,461,,17.155,485
17.29,342,,17.29,432,,17.29,483
17.425,367,,17.425,463,,17.425,504
17.56,341,,17.56,444,,17.56,494
17.695,331,,17.695,451,,17.695,478
17.83,324,,17.83,468,,17.83,514
17.965,295,,17.965,422,,17.965,524
18.1,336,,18.1,445,,18.1,473
18.235,307,,18.235,446,,18.235,461
18.37,306,,18.37,430,,18.37,460
18.505,281,,18.505,444,,18.505,461
18.64,312,,18.64,451,,18.64,446
18.775,364,,18.775,432,,18.775,431
18.91,301,,18.91,413,,18.91,438
19.045,279,,19.045,424,,19.045,468
19.18,304,,19.18,425,,19.18,439
19.315,262,,19.315,415,,19.315,416
19.45,285,,19.45,397,,19.45,441
19.585,299,,19.585,391,,19.585,442
19.72,303,,19.72,378,,19.72,404
19.855,305,,19.855,416,,19.855,438
19.99,286,,19.99,439,,19.99,402
20.125,286,,20.125,392,,20.125,423
20.26,300,,20.26,394,,20.26,416
20.395,274,,20.395,382,,20.395,434
20.53,294,,20.53,403,,20.53,436
20.665,285,,20.665,379,,20.665,436
20.8,275,,20.8,387,,20.8,457
20.935,281,,20.935,395,,20.935,467
21.07,291,,21.07,388,,21.07,447
21.205,275,,21.205,401,,21.205,562
21.34,334,,21.34,378,,21.34,785
21.475,310,,21.475,383,,21.475,1000
21.61,308,,21.61,385,,21.61,1028
21.745,373,,21.745,389,,21.745,975
21.88,424,,21.88,406,,21.88,1056
22.015,546,,22.015,433,,22.015,1391
22.15,974,,22.15,478,,22.15,1284
22.285,1879,,22.285,538,,22.285,864
22.42,2802,,22.42,757,,22.42,595
22.555,2803,,22.555,1239,,22.555,410
22.69,1926,,22.69,2287,,22.69,403
22.825,1042,,22.825,3565,,22.825,392
22.96,567,,22.96,4007,,22.96,328
23.095,407,,23.095,3202,,23.095,328
23.23,330,,23.23,1752,,23.23,304
23.365,269,,23.365,967,,23.365,320
23.5,268,,23.5,552,,23.5,367
23.635,239,,23.635,455,,23.635,319
23.77,233,,23.77,377,,23.77,288
23.905,226,,23.905,359,,23.905,288
24.04,218,,24.04,343,,24.04,297
24.175,211,,24.175,314,,24.175,294
24.31,221,,24.31,290,,24.31,281
24.445,217,,24.445,299,,24.445,327
24.58,203,,24.58,278,,24.58,323
24.715,188,,24.715,312,,24.715,362
24.85,205,,24.85,307,,24.85,424
24.985,202,,24.985,267,,24.985,416
25.12,217,,25.12,272,,25.12,344
25.255,205,,25.255,283,,25.255,268
25.39,250,,25.39,253,,25.39,266
25.525,299,,25.525,246,,25.525,250
25.66,378,,25.66,271,,25.66,236
25.795,582,,25.795,282,,25.795,255
25.93,888,,25.93,291,,25.93,259
26.065,902,,26.065,378,,26.065,230
26.2,661,,26.2,560,,26.2,263
26.335,404,,26.335,843,,26.335,237
26.47,305,,26.47,998,,26.47,237
26.605,211,,26.605,1019,,26.605,258
26.74,189,,26.74,683,,26.74,215
26.875,184,,26.875,487,,26.875,224
27.01,166,,27.01,312,,27.01,212
27.145,173,,27.145,302,,27.145,205
27.28,152,,27.28,252,,27.28,214
27.415,164,,27.415,235,,27.415,230
27.55,162,,27.55,246,,27.55,205
27.685,140,,27.685,258,,27.685,211
27.82,143,,27.82,246,,27.82,234
27.955,177,,27.955,300,,27.955,243
28.09,146,,28.09,350,,28.09,236
28.225,139,,28.225,340,,28.225,263
28.36,147,,28.36,296,,28.36,281
28.495,156,,28.495,253,,28.495,220
28.63,166,,28.63,245,,28.63,230
28.765,151,,28.765,205,,28.765,209
28.9,145,,28.9,193,,28.9,227
29.035,143,,29.035,220,,29.035,209
29.17,140,,29.17,203,,29.17,243
29.305,157,,29.305,208,,29.305,206
29.44,139,,29.44,208,,29.44,218
29.575,145,,29.575,224,,29.575,223
29.71,140,,29.71,219,,29.71,211
29.845,141,,29.845,202,,29.845,204
29.98,125,,29.98,209,,29.98,207
30.115,145,,30.115,185,,30.115,218
30.25,120,,30.25,216,,30.25,215
30.385,122,,30.385,168,,30.385,261
30.52,134,,30.52,190,,30.52,294
30.655,153,,30.655,201,,30.655,381
30.79,140,,30.79,238,,30.79,584
30.925,132,,30.925,281,,30.925,782
31.06,137,,31.06,353,,31.06,745
31.195,135,,31.195,370,,31.195,543
31.33,126,,31.33,325,,31.33,360
31.465,119,,31.465,293,,31.465,288
31.6,137,,31.6,213,,31.6,224
31.735,139,,31.735,184,,31.735,210
31.87,141,,31.87,191,,31.87,205
32.005,130,,32.005,176,,32.005,199
32.14,117,,32.14,176,,32.14,191
32.275,137,,32.275,193,,32.275,194
32.41,135,,32.41,193,,32.41,180
32.545,116,,32.545,206,,32.545,186
32.68,129,,32.68,192,,32.68,206
32.815,119,,32.815,189,,32.815,228
32.95,140,,32.95,192,,32.95,269
33.085,124,,33.085,173,,33.085,267
33.22,143,,33.22,186,,33.22,302
33.355,115,,33.355,201,,33.355,218
33.49,113,,33.49,227,,33.49,226
33.625,137,,33.625,263,,33.625,237
33.76,118,,33.76,358,,33.76,182
33.895,117,,33.895,405,,33.895,181
34.03,118,,34.03,405,,34.03,181
34.165,116,,34.165,350,,34.165,168
34.3,133,,34.3,260,,34.3,178
34.435,107,,34.435,204,,34.435,170
34.57,135,,34.57,230,,34.57,174
34.705,128,,34.705,162,,34.705,181
34.84,142,,34.84,190,,34.84,178
34.975,130,,34.975,177,,34.975,181
35.11,130,,35.11,180,,35.11,156
35.245,121,,35.245,183,,35.245,177
35.38,133,,35.38,197,,35.38,196
35.515,129,,35.515,187,,35.515,188
35.65,131,,35.65,186,,35.65,187
35.785,146,,35.785,184,,35.785,186
35.92,131,,35.92,190,,35.92,191
36.055,162,,36.055,200,,36.055,186
36.19,152,,36.19,210,,36.19,178
36.325,203,,36.325,228,,36.325,189
36.46,234,,36.46,244,,36.46,219
36.595,335,,36.595,275,,36.595,256
36.73,582,,36.73,234,,36.73,339
36.865,1025,,36.865,241,,36.865,278
37,1382,,37,262,,37,267
37.135,1380,,37.135,308,,37.135,247
37.27,928,,37.27,411,,37.27,259
37.405,551,,37.405,588,,37.405,340
37.54,316,,37.54,951,,37.54,438
37.675,205,,37.675,1358,,37.675,545
37.81,181,,37.81,1577,,37.81,693
37.945,151,,37.945,1409,,37.945,787
38.08,143,,38.08,937,,38.08,677
38.215,133,,38.215,559,,38.215,444
38.35,119,,38.35,384,,38.35,347
38.485,124,,38.485,285,,38.485,257
38.62,115,,38.62,233,,38.62,218
38.755,104,,38.755,252,,38.755,243
38.89,119,,38.89,224,,38.89,233
39.025,102,,39.025,236,,39.025,232
39.16,102,,39.16,227,,39.16,184
39.295,106,,39.295,220,,39.295,180
39.43,109,,39.43,188,,39.43,155
39.565,85,,39.565,168,,39.565,149
39.7,87,,39.7,163,,39.7,152
39.835,107,,39.835,170,,39.835,156
39.97,95,,39.97,169,,39.97,155
40.105,82,,40.105,158,,40.105,138
40.24,88,,40.24,181,,40.24,145
40.375,95,,40.375,175,,40.375,137
40.51,96,,40.51,165,,40.51,144
40.645,102,,40.645,185,,40.645,148
40.78,91,,40.78,163,,40.78,145
40.915,102,,40.915,170,,40.915,127
41.05,93,,41.05,238,,41.05,145
41.185,94,,41.185,283,,41.185,141
41.32,92,,41.32,301,,41.32,142
41.455,88,,41.455,280,,41.455,120
41.59,93,,41.59,240,,41.59,133
41.725,86,,41.725,199,,41.725,125
41.86,102,,41.86,199,,41.86,120
41.995,104,,41.995,177,,41.995,145
42.13,110,,42.13,174,,42.13,129
42.265,94,,42.265,174,,42.265,157
42.4,93,,42.4,187,,42.4,159
42.535,108,,42.535,178,,42.535,180
42.67,122,,42.67,180,,42.67,201
42.805,132,,42.805,176,,42.805,268
42.94,140,,42.94,157,,42.94,287
43.075,164,,43.075,209,,43.075,268
43.21,234,,43.21,200,,43.21,261
43.345,390,,43.345,261,,43.345,190
43.48,630,,43.48,264,,43.48,187
43.615,1006,,43.615,294,,43.615,201
43.75,1119,,43.75,279,,43.75,195
43.885,866,,43.885,277,,43.885,194
44.02,542,,44.02,313,,44.02,168
44.155,305,,44.155,411,,44.155,166
44.29,207,,44.29,541,,44.29,139
44.425,154,,44.425,804,,44.425,162
44.56,150,,44.56,1028,,44.56,155
44.695,109,,44.695,995,,44.695,163
44.83,117,,44.83,763,,44.83,182
44.965,102,,44.965,535,,44.965,161
45.1,115,,45.1,353,,45.1,166
45.235,115,,45.235,297,,45.235,154
45.37,149,,45.37,285,,45.37,152
45.505,190,,45.505,309,,45.505,178
45.64,256,,45.64,328,,45.64,146
45.775,278,,45.775,298,,45.775,155
45.91,254,,45.91,272,,45.91,149
46.045,190,,46.045,206,,46.045,137
46.18,120,,46.18,201,,46.18,110
46.315,119,,46.315,215,,46.315,120
46.45,99,,46.45,249,,46.45,116
46.585,106,,46.585,286,,46.585,125
46.72,80,,46.72,299,,46.72,121
46.855,108,,46.855,261,,46.855,117
46.99,86,,46.99,221,,46.99,112
47.125,78,,47.125,188,,47.125,111
47.26,97,,47.26,181,,47.26,145
47.395,81,,47.395,183,,47.395,117
47.53,68,,47.53,153,,47.53,123
47.665,71,,47.665,206,,47.665,138
47.8,77,,47.8,176,,47.8,107
47.935,76,,47.935,162,,47.935,112
48.07,76,,48.07,160,,48.07,113
48.205,83,,48.205,140,,48.205,113
48.34,78,,48.34,149,,48.34,117
48.475,78,,48.475,164,,48.475,130
48.61,79,,48.61,164,,48.61,112
48.745,80,,48.745,161,,48.745,131
48.88,76,,48.88,161,,48.88,145
49.015,86,,49.015,161,,49.015,146
49.15,84,,49.15,145,,49.15,179
49.285,72,,49.285,181,,49.285,211
49.42,80,,49.42,177,,49.42,242
49.555,73,,49.555,189,,49.555,228
49.69,91,,49.69,200,,49.69,211
49.825,72,,49.825,223,,49.825,189
49.96,61,,49.96,201,,49.96,170
50.095,69,,50.095,157,,50.095,175
50.155,70,,50.155,153,,50.155,170

File: XRD_6_component_systems_repeat.csv
HTA1;HTA1;HTA2;HTA3;HTA4;HTA5;HTA6;HTA7;HTA8;HTA9;HTA10;HTA11;HTA12;HTA13;HTB1;HTB2;HTB3;HTB4;HTB5;HTB6;HTB7;HTB8;HTB9;HTB10;HTB11;HTB12;HTB13;HTC1;HTC2;HTC3;HTC4;HTC5;HTC6;HTC7;HTC8;HTC9;HTC10;HTC11;HTC12;HTC13;HTD1;HTD2;HTD3;HTD4;HTD5;HTD6;HTD7;HTD8;HTD9;HTD10;HTD11;HTD12;HTD13;HTE1;HTE2;HTE3;HTE4;HTE5;HTE6;HTE7;HTE8;HTE9;HTE10;HTE11;HTE12;HTE13;HTF1;HTF2;HTF3;HTF4;HTF5;HTF6;HTF7;HTF8;HTF9;HTF10;HTF11;HTF12;HTF13;HTG1;HTG2;HTG3;HTG4;HTG5;HTG6;HTG7;HTG8;HTG9;HTG10;HTG11;HTG12;HTG13;HTH1;HTH2;HTH3;HTH4;HTH5;HTH6;HTH7;HTH8;HTH9;HTH10;HTH11;HTH12;HTH13;HTI1;HTI2;HTI3;HTI4;HTI5;HTI6;HTI7;HTI8;HTI9;HTI10;HTI11;HTI12;HTI13;HTJ1;HTJ2;HTJ3;HTJ4;HTJ5;HTJ6;HTJ7;HTJ8;HTJ9;HTJ10;HTJ11;HTJ12;HTJ13;HTK1;HTK2;HTK3;HTK4;HTK5;HTK6;HTK7;HTK8;HTK9;HTK10;HTK11;HTK12;HTK13;HTL1;HTL2;HTL3;HTL4;HTL5;HTL6;HTL7;HTL8;HTL9;HTL10;HTL11;HTL12;HTL13;HTM1;HTM2;HTM3;HTM4;HTM5;HTM6;HTM7;HTM8;HTM9;HTM10;HTM11;HTM12;HTM13
25;1500;1105;203;194;201;173;214;231;548;847;1075;2288;2301;1071;191;175;190;183;210;175;201;233;550;839;1142;2363;196;190;208;197;199;192;196;194;191;289;611;903;1134;194;202;180;204;161;163;208;195;187;190;428;823;1015;198;180;199;173;215;185;201;178;201;190;355;689;938;200;191;189;193;188;201;193;209;200;205;284;579;886;190;188;191;192;180;182;194;198;182;195;260;566;851;195;212;190;227;210;190;201;201;186;185;281;642;911;181;194;180;228;190;193;184;188;199;177;370;711;927;171;183;185;178;176;181;186;175;190;203;450;715;1063;205;184;182;207;181;185;194;203;195;332;647;866;1148;1266;196;202;184;179;189;206;183;251;553;866;1080;2233;1540;1284;183;204;197;210;201;268;596;885;1185;2260;2151
27.85;1200;908;181;188;197;188;192;283;515;774;956;1905;1860;863;213;176;184;178;186;182;204;292;576;768;916;1916;210;184;218;189;185;189;198;192;200;345;591;770;958;189;184;188;172;173;184;174;177;183;237;504;762;908;185;199;210;205;187;216;209;199;198;188;400;631;847;206;188;195;175;201;202;193;205;194;196;378;608;792;189;209;207;186;210;185;192;203;192;181;337;574;780;201;191;183;197;188;182;176;193;197;200;395;633;831;201;196;193;183;182;192;154;220;187;186;444;637;857;199;180;180;201;200;183;206;187;190;257;534;726;897;178;206;195;187;202;179;178;184;189;411;578;792;982;1011;168;186;192;200;187;186;192;316;552;782;948;1859;1177;1020;202;227;195;194;191;360;568;796;955;1865;1748
30.7;985;778;232;257;252;246;315;435;630;783;877;1503;1555;726;269;247;264;255;247;290;294;432;633;802;1001;1560;243;241;235;248;270;255;251;275;315;485;676;852;920;219;264;236;243;275;262;244;279;271;404;582;770;912;214;224;255;229;262;280;259;266;274;342;553;717;926;235;236;226;253;249;242;291;293;287;320;522;661;839;234;231;271;260;253;267;254;280;281;295;494;692;837;231;239;266;249;236;282;281;276;280;306;489;641;802;225;246;227;234;250;250;243;282;293;365;558;717;837;246;241;244;217;244;239;242;266;272;466;601;782;822;245;234;205;221;238;240;241;233;280;531;657;835;967;810;210;218;229;239;229;256;301;415;609;798;915;1521;980;842;250;207;240;252;295;421;625;783;908;1501;1441
33.55;766;593;149;161;150;159;202;329;455;561;666;1310;1235;585;162;158;183;144;163;146;179;288;465;577;655;1309;153;149;130;147;136;142;139;162;230;360;460;611;648;162;131;141;137;137;142;144;147;165;298;406;547;574;128;148;139;135;168;148;163;146;160;251;398;534;615;150;148;142;155;146;169;131;160;178;226;358;481;527;156;141;162;156;136;156;153;145;149;221;323;461;561;138;157;138;149;144;155;152;151;137;221;364;483;549;155;157;159;145;140;147;121;161;141;244;416;499;582;155;150;153;145;159;149;153;150;183;331;414;575;613;153;159;148;148;148;153;150;144;244;354;494;586;639;717;147;145;130;154;152;163;199;332;461;571;660;1182;774;665;140;137;154;148;233;358;451;589;667;1224;1161
36.4;699;522;116;141;133;134;243;294;381;465;550;1121;1017;502;117;124;142;121;129;151;206;299;406;472;585;1033;135;155;142;142;126;139;140;169;261;327;444;499;491;123;134;134;113;120;133;127;119;182;315;400;495;485;135;140;129;127;142;148;129;145;146;257;332;434;414;140;128;113;147;127;129;127;134;137;233;362;408;427;140;128;148;141;129;145;120;130;160;272;314;404;419;139;131;125;155;130;142;129;140;156;251;352;405;424;133;128;127;127;148;145;111;138;167;257;357;429;433;137;143;140;124;132;136;128;136;188;297;403;463;457;138;123;129;132;121;145;133;145;260;347;402;526;477;613;131;128;127;124;140;150;226;339;427;529;531;984;673;593;127;139;130;139;248;326;433;517;590;1052;939
39.25;578;471;118;127;124;139;233;283;373;409;440;923;816;456;115;111;117;128;135;162;240;297;343;426;497;829;134;117;111;107;115;119;111;153;239;334;334;405;418;108;112;116;118;115;129;131;119;207;301;333;417;345;119;128;101;125;125;132;138;130;181;273;342;378;357;116;128;110;126;117;118;111;123;161;238;296;373;347;110;108;104;126;131;118;125;113;143;221;297;343;326;120;128;128;115;105;122;121;129;160;242;307;368;363;108;126;131;121;131;119;96;124;181;264;347;336;320;141;108;119;118;113;123;120;132;219;251;370;392;364;114;116;127;121;132;121;140;166;265;328;356;383;361;518;121;113;116;132;102;151;232;306;397;436;445;834;617;510;119;120;134;165;224;311;389;461;493;899;786
42.1;497;462;91;89;96;134;218;261;298;347;419;770;704;400;90;84;102;95;99;141;214;283;323;385;372;759;96;84;90;98;110;108;106;139;202;278;322;331;291;91;104;80;87;95;80;94;123;186;255;296;296;260;81;94;97;94;96;101;102;113;187;234;297;298;303;95;80;101;105;99;93;101;115;161;228;270;279;274;106;98;98;103;106;92;86;101;142;216;256;273;252;103;98;105;112;100;85;83;105;159;224;289;286;256;101;97;99;96;100;79;76;121;178;248;270;296;252;93;104;106;96;100;89;104;121;203;247;301;316;287;119;100;96;103;88;91;96;178;226;292;308;308;291;468;100;104;105;105;104;158;195;257;335;367;383;677;497;491;110;104;93;164;221;266;303;370;397;770;671
44.95;470;371;102;119;124;200;243;313;347;367;400;710;649;373;106;115;113;104;155;174;245;287;319;342;345;641;111;114;109;115;111;101;144;196;234;309;307;314;280;103;104;93;106;106;111;126;171;217;252;316;282;266;108;113;116;114;106;98;128;139;207;243;294;263;253;102;93;109;104;118;104;96;162;190;232;274;250;237;87;93;107;108;109;120;114;124;181;247;284;251;233;132;92;109;96;108;101;103;137;204;233;240;262;261;108;99;100;106;91;114;108;150;195;244;290;244;248;116;98;118;104;111;117;129;166;227;253;303;262;283;109;101;103;100;96;111;133;206;216;285;309;291;277;403;116;112;117;126;115;169;268;302;290;338;302;615;425;442;98;104;119;183;248;268;324;347;390;627;585
47.8;425;340;74;74;105;153;184;232;256;304;290;615;554;346;69;69;57;78;114;143;190;231;260;248;241;552;84;67;76;65;79;78;110;150;193;222;219;209;192;61;67;72;69;70;73;87;136;155;212;213;215;214;68;58;81;66;67;78;86;133;167;201;202;186;163;69;84;75;68;80;74;70;117;156;179;209;184;165;79;69;75;72;80;83;67;120;136;192;195;182;172;65;63;66;74;68;69;71;124;167;199;213;186;186;78;73;69;63;68;73;82;146;159;197;200;190;187;81;72;83;76;71;68;88;137;191;205;212;182;186;73;68;80;73;82;84;130;149;195;240;205;227;194;378;75;87;72;76;107;154;196;222;223;255;244;546;451;406;75;75;119;165;202;227;253;290;269;557;531
[...]
59.2;318;254;99;110;139;156;177;179;164;165;150;415;383;237;54;74;79;115;135;166;171;173;156;145;125;337;51;45;66;91;93;122;119;153;135;129;121;122;121;62;41;47;56;83;121;128;137;130;125;126;114;116;45;52;63;47;84;97;126;127;137;132;113;120;118;52;57;58;55;72;110;122;142;126;111;107;123;101;56;46;46;61;58;91;124;117;116;121;123;109;106;55;53;49;57;75;98;102;140;114;114;101;108;114;47;56;51;56;90;109;123;129;128;126;110;109;115;44;59;60;66;92;98;117;143;121;129;118;105;120;51;50;67;61;94;124;149;153;130;141;145;121;108;310;49;75;95;122;132;155;142;153;141;139;134;355;327;320;92;132;151;159;171;188;188;147;179;407;421
62.05;310;275;93;136;140;145;149;152;159;145;122;375;367;241;59;91;103;126;134;135;130;143;133;131;115;311;56;51;60;79;101;128;123;129;115;110;125;103;105;56;46;53;57;94;114;133;124;123;94;112;103;93;50;35;64;69;89;103;117;122;115;116;104;102;109;58;41;56;62;96;118;119;115;115;108;100;105;98;49;49;53;67;85;98;114;121;104;110;105;101;88;58;55;55;77;90;103;123;118;112;109;93;114;100;48;55;48;70;96;114;116;123;117;115;120;103;100;56;54;52;85;89;98;136;115;135;110;113;109;99;54;57;65;87;97;123;125;135;120;117;116;117;105;291;75;86;105;123;134;143;131;129;101;129;105;339;321;325;95;133;163;181;146;155;155;153;149;401;365
64.9;309;276;110;113;153;151;121;142;139;122;136;353;335;239;69;95;112;126;133;128;117;108;112;112;92;312;58;60;81;84;118;115;121;105;104;111;100;88;91;55;60;74;94;95;126;127;105;113;92;104;97;94;55;48;64;101;100;119;110;108;97;95;108;98;82;54;63;74;85;94;113;104;105;110;107;106;93;96;49;64;63;76;112;106;111;111;93;92;93;101;102;60;66;64;84;96;121;113;96;102;99;91;96;98;59;58;66;93;87;125;108;124;98;112;90;101;107;57;67;75;106;117;105;96;111;95;123;103;94;95;65;82;93;105;105;131;133;114;109;103;110;90;105;279;87;108;106;137;142;116;126;129;133;112;120;339;300;311;128;152;135;159;139;157;142;160;145;353;325
67.75;300;258;132;135;129;120;120;144;120;125;128;315;343;236;108;110;137;132;127;139;119;114;117;112;107;288;83;78;101;117;122;116;112;118;113;102;97;111;107;59;77;86;110;92;113;122;110;98;98;109;90;103;55;68;87;105;98;98;106;98;90;109;97;110;111;61;72;83;106;114;121;98;99;113;94;87;87;109;55;67;88;100;119;93;98;98;90;98;83;98;91;57;73;71;99;109;97;103;96;100;87;99;99;104;52;67;88;103;102;106;102;98;92;88;97;91;93;57;67;105;116;110;107;122;122;110;89;99;100;103;76;91;104;134;117;113;120;111;99;101;90;92;107;287;101;113;131;120;154;122;116;120;106;95;109;333;313;307;133;159;170;156;134;131;148;130;133;330;321
68.875;310;281;126;143;137;141;137;131;136;133;122;333;302;260;125;145;140;138;143;126;121;112;114;121;119;286;86;105;119;130;125;112;118;130;110;105;110;111;127;70;89;96;105;118;100;114;113;98;95;115;113;116;85;88;98;95;113;120;115;104;108;90;99;99;125;66;82;80;109;99;114;124;94;100;116;93;122;122;76;99;84;111;127;103;98;93;109;99;105;113;114;93;71;96;98;119;119;104;107;94;109;108;107;120;70;88;103;113;108;101;105;105;106;89;104;103;132;87;100;103;108;120;102;117;100;103;92;107;101;118;89;108;105;119;129;127;135;121;111;109;116;138;115;281;121;132;147;144;127;131;141;117;104;100;118;279;297;311;134;158;164;146;139;145;131;143;139;324;319